# == Filter Data - Lambda 9 Spectrophotometer ==
#   Kitt Peak National Observatory - NOAO
# ------------------------------------------------
# Filter: K1001 1NM/60NMPERSEC/1S   300-1200NM
# Date: 08/27/04   Time: 11:55:07  Operator: HS
# cwl=  3579.19A  fwhm= 619.61A  Tmax= 74.92% at  3640.00A
# Tcutoff=  2.00 %  Slitsize = 10 A
# fwhm spans 3269.38A to 3888.99A
# 90%  spans 3464.68A to 3764.80A
# bw90 is  0.484; Tmin90/Tmax is  0.900
# No data smoothing
# 
# Npts=  901     Disp= 10.00A/Interval
# *****
  3000.00     0.015
  3010.00     0.030
  3020.00     0.075
  3030.00     0.140
  3040.00     0.250
  3050.00     0.425
  3060.00     0.670
  3070.00     1.030
  3080.00     1.520
  3090.00     2.150
  3100.00     2.970
  3110.00     3.955
  3120.00     5.130
  3130.00     6.470
  3140.00     8.030
  3150.00     9.795
  3160.00    11.705
  3170.00    13.785
  3180.00    15.980
  3190.00    18.255
  3200.00    20.630
  3210.00    23.090
  3220.00    25.500
  3230.00    27.985
  3240.00    30.400
  3250.00    32.845
  3260.00    35.225
  3270.00    37.610
  3280.00    39.895
  3290.00    42.050
  3300.00    44.180
  3310.00    46.195
  3320.00    48.100
  3330.00    49.920
  3340.00    51.745
  3350.00    53.410
  3360.00    54.990
  3370.00    56.505
  3380.00    57.970
  3390.00    59.295
  3400.00    60.605
  3410.00    61.805
  3420.00    62.985
  3430.00    64.035
  3440.00    65.040
  3450.00    66.080
  3460.00    67.035
  3470.00    67.885
  3480.00    68.720
  3490.00    69.490
  3500.00    70.170
  3510.00    70.855
  3520.00    71.520
  3530.00    72.100
  3540.00    72.505
  3550.00    73.075
  3560.00    73.385
  3570.00    73.830
  3580.00    74.100
  3590.00    74.395
  3600.00    74.630
  3610.00    74.785
  3620.00    74.910
  3630.00    74.925
  3640.00    74.925
  3650.00    74.840
  3660.00    74.700
  3670.00    74.495
  3680.00    74.170
  3690.00    73.840
  3700.00    73.360
  3710.00    72.745
  3720.00    72.070
  3730.00    71.280
  3740.00    70.330
  3750.00    69.310
  3760.00    68.095
  3770.00    66.715
  3780.00    65.205
  3790.00    63.390
  3800.00    61.465
  3810.00    59.380
  3820.00    57.150
  3830.00    54.720
  3840.00    52.205
  3850.00    49.415
  3860.00    46.545
  3870.00    43.480
  3880.00    40.375
  3890.00    37.135
  3900.00    33.850
  3910.00    30.660
  3920.00    27.490
  3930.00    24.420
  3940.00    21.470
  3950.00    18.675
  3960.00    16.055
  3970.00    13.630
  3980.00    11.425
  3990.00     9.480
  4000.00     7.755
  4010.00     6.265
  4020.00     5.010
  4030.00     3.975
  4040.00     3.090
  4050.00     2.385
  4060.00     1.815
  4070.00     1.360
  4080.00     1.005
  4090.00     0.740
  4100.00     0.535
  4110.00     0.385
  4120.00     0.275
  4130.00     0.195
  4140.00     0.135
  4150.00     0.095
  4160.00     0.060
  4170.00     0.045
  4180.00     0.030
  4190.00     0.015
  4200.00     0.010
  4210.00     0.005
  4220.00     0.005
  4230.00     0.000
  4240.00     0.000
  4250.00    -0.005
  4260.00     0.000
  4270.00    -0.005
  4280.00    -0.005
  4290.00    -0.005
  4300.00    -0.005
  4310.00    -0.005
  4320.00    -0.005
  4330.00    -0.005
  4340.00    -0.005
  4350.00    -0.005
  4360.00    -0.005
  4370.00    -0.005
  4380.00     0.000
  4390.00    -0.005
  4400.00    -0.005
  4410.00    -0.005
  4420.00    -0.005
  4430.00    -0.005
  4440.00    -0.005
  4450.00    -0.005
  4460.00    -0.005
  4470.00    -0.005
  4480.00    -0.005
  4490.00    -0.005
  4500.00    -0.005
  4510.00    -0.005
  4520.00    -0.005
  4530.00    -0.005
  4540.00    -0.005
  4550.00    -0.005
  4560.00    -0.005
  4570.00    -0.005
  4580.00    -0.005
  4590.00    -0.005
  4600.00    -0.005
  4610.00    -0.005
  4620.00    -0.005
  4630.00    -0.005
  4640.00    -0.005
  4650.00    -0.005
  4660.00     0.000
  4670.00    -0.005
  4680.00    -0.005
  4690.00    -0.005
  4700.00    -0.005
  4710.00    -0.005
  4720.00    -0.005
  4730.00    -0.005
  4740.00    -0.005
  4750.00    -0.005
  4760.00    -0.005
  4770.00     0.000
  4780.00    -0.005
  4790.00    -0.005
  4800.00    -0.005
  4810.00    -0.005
  4820.00    -0.005
  4830.00    -0.005
  4840.00    -0.005
  4850.00    -0.010
  4860.00    -0.005
  4870.00    -0.005
  4880.00    -0.005
  4890.00    -0.005
  4900.00    -0.005
  4910.00    -0.005
  4920.00    -0.005
  4930.00    -0.005
  4940.00    -0.005
  4950.00    -0.005
  4960.00    -0.005
  4970.00    -0.005
  4980.00    -0.005
  4990.00    -0.005
  5000.00     0.000
  5010.00     0.000
  5020.00    -0.005
  5030.00    -0.005
  5040.00    -0.005
  5050.00    -0.005
  5060.00    -0.005
  5070.00    -0.005
  5080.00    -0.005
  5090.00    -0.005
  5100.00    -0.005
  5110.00    -0.005
  5120.00    -0.005
  5130.00    -0.005
  5140.00    -0.005
  5150.00    -0.005
  5160.00    -0.005
  5170.00    -0.005
  5180.00    -0.005
  5190.00    -0.005
  5200.00    -0.005
  5210.00    -0.005
  5220.00    -0.005
  5230.00    -0.005
  5240.00    -0.005
  5250.00    -0.005
  5260.00    -0.005
  5270.00    -0.005
  5280.00    -0.005
  5290.00    -0.005
  5300.00    -0.005
  5310.00    -0.005
  5320.00     0.000
  5330.00     0.000
  5340.00    -0.005
  5350.00    -0.005
  5360.00    -0.005
  5370.00    -0.005
  5380.00    -0.005
  5390.00    -0.005
  5400.00     0.000
  5410.00    -0.005
  5420.00    -0.005
  5430.00    -0.005
  5440.00    -0.005
  5450.00    -0.005
  5460.00    -0.005
  5470.00    -0.005
  5480.00    -0.005
  5490.00    -0.005
  5500.00    -0.005
  5510.00    -0.005
  5520.00    -0.005
  5530.00    -0.005
  5540.00    -0.010
  5550.00    -0.005
  5560.00    -0.005
  5570.00    -0.005
  5580.00    -0.005
  5590.00    -0.005
  5600.00    -0.005
  5610.00    -0.005
  5620.00    -0.025
  5630.00    -0.005
  5640.00    -0.005
  5650.00    -0.005
  5660.00    -0.005
  5670.00    -0.005
  5680.00    -0.005
  5690.00    -0.005
  5700.00    -0.005
  5710.00    -0.005
  5720.00    -0.005
  5730.00    -0.005
  5740.00    -0.005
  5750.00    -0.005
  5760.00    -0.005
  5770.00     0.000
  5780.00    -0.005
  5790.00    -0.005
  5800.00    -0.005
  5810.00    -0.005
  5820.00    -0.005
  5830.00    -0.005
  5840.00    -0.005
  5850.00    -0.005
  5860.00    -0.005
  5870.00    -0.005
  5880.00    -0.005
  5890.00    -0.005
  5900.00    -0.005
  5910.00    -0.005
  5920.00    -0.005
  5930.00    -0.005
  5940.00    -0.005
  5950.00    -0.005
  5960.00    -0.005
  5970.00    -0.005
  5980.00    -0.005
  5990.00    -0.005
  6000.00    -0.005
  6010.00    -0.005
  6020.00    -0.005
  6030.00    -0.005
  6040.00    -0.005
  6050.00    -0.005
  6060.00    -0.005
  6070.00    -0.005
  6080.00    -0.005
  6090.00    -0.005
  6100.00    -0.005
  6110.00    -0.005
  6120.00    -0.005
  6130.00     0.000
  6140.00    -0.005
  6150.00    -0.005
  6160.00    -0.005
  6170.00    -0.005
  6180.00    -0.005
  6190.00    -0.005
  6200.00    -0.005
  6210.00    -0.005
  6220.00    -0.005
  6230.00    -0.005
  6240.00    -0.005
  6250.00    -0.005
  6260.00    -0.005
  6270.00    -0.005
  6280.00    -0.005
  6290.00    -0.005
  6300.00    -0.005
  6310.00    -0.005
  6320.00    -0.005
  6330.00    -0.005
  6340.00    -0.005
  6350.00    -0.005
  6360.00    -0.005
  6370.00     0.000
  6380.00     0.000
  6390.00     0.000
  6400.00    -0.005
  6410.00    -0.005
  6420.00    -0.005
  6430.00    -0.005
  6440.00    -0.005
  6450.00    -0.005
  6460.00    -0.005
  6470.00    -0.005
  6480.00     0.000
  6490.00    -0.005
  6500.00    -0.005
  6510.00    -0.005
  6520.00    -0.005
  6530.00    -0.005
  6540.00    -0.005
  6550.00    -0.005
  6560.00    -0.005
  6570.00    -0.005
  6580.00    -0.005
  6590.00    -0.005
  6600.00    -0.005
  6610.00    -0.005
  6620.00    -0.005
  6630.00    -0.005
  6640.00    -0.005
  6650.00    -0.005
  6660.00    -0.005
  6670.00    -0.005
  6680.00    -0.005
  6690.00    -0.005
  6700.00    -0.005
  6710.00    -0.005
  6720.00    -0.005
  6730.00    -0.005
  6740.00    -0.005
  6750.00    -0.005
  6760.00    -0.005
  6770.00    -0.005
  6780.00    -0.005
  6790.00    -0.005
  6800.00    -0.005
  6810.00    -0.005
  6820.00    -0.005
  6830.00    -0.005
  6840.00    -0.005
  6850.00    -0.005
  6860.00    -0.005
  6870.00    -0.005
  6880.00    -0.005
  6890.00    -0.005
  6900.00    -0.025
  6910.00    -0.005
  6920.00    -0.005
  6930.00    -0.005
  6940.00    -0.005
  6950.00    -0.005
  6960.00    -0.005
  6970.00    -0.005
  6980.00    -0.005
  6990.00    -0.005
  7000.00    -0.005
  7010.00    -0.005
  7020.00    -0.005
  7030.00    -0.005
  7040.00    -0.005
  7050.00    -0.005
  7060.00    -0.005
  7070.00    -0.005
  7080.00    -0.005
  7090.00    -0.005
  7100.00    -0.005
  7110.00    -0.005
  7120.00    -0.005
  7130.00    -0.005
  7140.00    -0.005
  7150.00    -0.005
  7160.00    -0.005
  7170.00    -0.005
  7180.00    -0.005
  7190.00    -0.005
  7200.00    -0.005
  7210.00    -0.005
  7220.00    -0.005
  7230.00     0.000
  7240.00    -0.005
  7250.00    -0.005
  7260.00    -0.005
  7270.00    -0.005
  7280.00    -0.005
  7290.00    -0.005
  7300.00    -0.005
  7310.00    -0.005
  7320.00    -0.005
  7330.00    -0.005
  7340.00    -0.005
  7350.00    -0.005
  7360.00    -0.005
  7370.00    -0.005
  7380.00    -0.005
  7390.00    -0.005
  7400.00    -0.005
  7410.00    -0.005
  7420.00    -0.005
  7430.00    -0.005
  7440.00    -0.005
  7450.00    -0.005
  7460.00    -0.005
  7470.00    -0.005
  7480.00    -0.005
  7490.00    -0.005
  7500.00    -0.005
  7510.00    -0.005
  7520.00    -0.005
  7530.00    -0.005
  7540.00    -0.005
  7550.00    -0.005
  7560.00    -0.005
  7570.00    -0.005
  7580.00    -0.005
  7590.00    -0.005
  7600.00    -0.005
  7610.00    -0.005
  7620.00    -0.005
  7630.00    -0.005
  7640.00    -0.005
  7650.00    -0.005
  7660.00    -0.005
  7670.00    -0.005
  7680.00    -0.005
  7690.00    -0.005
  7700.00    -0.005
  7710.00    -0.005
  7720.00    -0.005
  7730.00    -0.005
  7740.00    -0.005
  7750.00    -0.005
  7760.00    -0.005
  7770.00    -0.005
  7780.00    -0.005
  7790.00     0.000
  7800.00     0.000
  7810.00    -0.005
  7820.00    -0.005
  7830.00    -0.005
  7840.00    -0.005
  7850.00     0.000
  7860.00     0.000
  7870.00     0.000
  7880.00     0.000
  7890.00    -0.005
  7900.00     0.000
  7910.00    -0.005
  7920.00     0.000
  7930.00    -0.005
  7940.00    -0.005
  7950.00     0.000
  7960.00    -0.010
  7970.00    -0.005
  7980.00    -0.005
  7990.00    -0.005
  8000.00    -0.005
  8010.00     0.000
  8020.00    -0.005
  8030.00    -0.005
  8040.00     0.000
  8050.00    -0.005
  8060.00     0.000
  8070.00    -0.005
  8080.00     0.000
  8090.00    -0.005
  8100.00     0.000
  8110.00    -0.005
  8120.00     0.000
  8130.00    -0.005
  8140.00     0.000
  8150.00     0.000
  8160.00     0.000
  8170.00     0.000
  8180.00     0.000
  8190.00     0.000
  8200.00    -0.005
  8210.00    -0.005
  8220.00    -0.010
  8230.00     0.000
  8240.00     0.000
  8250.00     0.000
  8260.00     0.000
  8270.00     0.000
  8280.00     0.000
  8290.00    -0.005
  8300.00     0.000
  8310.00     0.000
  8320.00    -0.005
  8330.00     0.005
  8340.00     0.000
  8350.00    -0.005
  8360.00     0.000
  8370.00    -0.005
  8380.00     0.000
  8390.00     0.000
  8400.00    -0.005
  8410.00     0.000
  8420.00     0.000
  8430.00    -0.005
  8440.00     0.000
  8450.00    -0.005
  8460.00     0.005
  8470.00     0.000
  8480.00     0.005
  8490.00    -0.005
  8500.00     0.000
  8510.00    -0.005
  8520.00    -0.005
  8530.00     0.005
  8540.00     0.000
  8550.00     0.015
  8560.00    -0.010
  8570.00     0.000
  8580.00    -0.005
  8590.00    -0.005
  8600.00     0.020
  8610.00     0.020
  8620.00     0.025
  8630.00     0.035
  8640.00     0.015
  8650.00     0.040
  8660.00     0.010
  8670.00     0.050
  8680.00     0.035
  8690.00     0.080
  8700.00     0.055
  8710.00     0.070
  8720.00     0.010
  8730.00     0.025
  8740.00     0.045
  8750.00     0.015
  8760.00     0.030
  8770.00     0.050
  8780.00     0.015
  8790.00     0.000
  8800.00     0.035
  8810.00     0.065
  8820.00     0.015
  8830.00     0.020
  8840.00     0.040
  8850.00     0.055
  8860.00     0.035
  8870.00     0.065
  8880.00     0.020
  8890.00     0.030
  8900.00     0.020
  8910.00     0.035
  8920.00     0.045
  8930.00     0.060
  8940.00     0.045
  8950.00     0.020
  8960.00     0.040
  8970.00     0.045
  8980.00     0.020
  8990.00     0.035
  9000.00     0.055
  9010.00     0.060
  9020.00     0.030
  9030.00     0.025
  9040.00     0.025
  9050.00     0.060
  9060.00     0.020
  9070.00     0.075
  9080.00     0.045
  9090.00     0.040
  9100.00     0.015
  9110.00     0.005
  9120.00     0.060
  9130.00     0.050
  9140.00     0.025
  9150.00    -0.005
  9160.00     0.020
  9170.00     0.030
  9180.00     0.035
  9190.00     0.030
  9200.00     0.025
  9210.00     0.015
  9220.00     0.050
  9230.00     0.030
  9240.00     0.010
  9250.00     0.015
  9260.00     0.025
  9270.00     0.045
  9280.00     0.055
  9290.00     0.025
  9300.00     0.035
  9310.00     0.015
  9320.00     0.070
  9330.00     0.035
  9340.00     0.010
  9350.00     0.025
  9360.00     0.035
  9370.00     0.035
  9380.00     0.055
  9390.00     0.050
  9400.00     0.020
  9410.00     0.030
  9420.00     0.020
  9430.00     0.010
  9440.00     0.050
  9450.00     0.030
  9460.00     0.030
  9470.00     0.025
  9480.00     0.010
  9490.00     0.015
  9500.00     0.065
  9510.00     0.035
  9520.00    -0.010
  9530.00     0.030
  9540.00     0.015
  9550.00     0.035
  9560.00     0.035
  9570.00     0.055
  9580.00     0.015
  9590.00    -0.015
  9600.00     0.065
  9610.00     0.080
  9620.00     0.035
  9630.00     0.020
  9640.00     0.025
  9650.00     0.085
  9660.00     0.005
  9670.00     0.045
  9680.00     0.020
  9690.00     0.070
  9700.00     0.050
  9710.00     0.075
  9720.00     0.070
  9730.00     0.055
  9740.00     0.020
  9750.00     0.020
  9760.00     0.020
  9770.00     0.035
  9780.00     0.005
  9790.00     0.040
  9800.00     0.015
  9810.00     0.020
  9820.00     0.025
  9830.00    -0.030
  9840.00     0.000
  9850.00     0.030
  9860.00     0.025
  9870.00     0.030
  9880.00     0.015
  9890.00     0.050
  9900.00     0.010
  9910.00     0.025
  9920.00    -0.005
  9930.00     0.065
  9940.00     0.055
  9950.00     0.025
  9960.00     0.045
  9970.00     0.035
  9980.00     0.005
  9990.00     0.030
 10000.00     0.010
 10010.00     0.040
 10020.00     0.040
 10030.00     0.015
 10040.00     0.010
 10050.00     0.040
 10060.00     0.015
 10070.00     0.050
 10080.00     0.035
 10090.00     0.025
 10100.00     0.070
 10110.00     0.045
 10120.00     0.030
 10130.00     0.080
 10140.00     0.015
 10150.00     0.050
 10160.00     0.005
 10170.00     0.065
 10180.00     0.055
 10190.00     0.005
 10200.00     0.055
 10210.00    -0.010
 10220.00     0.030
 10230.00     0.045
 10240.00     0.010
 10250.00     0.070
 10260.00     0.045
 10270.00     0.055
 10280.00     0.050
 10290.00     0.025
 10300.00    -0.030
 10310.00    -0.005
 10320.00     0.040
 10330.00     0.035
 10340.00     0.050
 10350.00     0.020
 10360.00     0.040
 10370.00     0.030
 10380.00     0.030
 10390.00     0.075
 10400.00     0.015
 10410.00     0.005
 10420.00     0.045
 10430.00     0.085
 10440.00     0.015
 10450.00     0.060
 10460.00     0.010
 10470.00     0.025
 10480.00     0.070
 10490.00    -0.005
 10500.00     0.015
 10510.00     0.040
 10520.00     0.005
 10530.00     0.035
 10540.00     0.000
 10550.00     0.045
 10560.00     0.010
 10570.00     0.020
 10580.00    -0.020
 10590.00     0.055
 10600.00     0.035
 10610.00     0.015
 10620.00     0.050
 10630.00     0.040
 10640.00     0.035
 10650.00     0.010
 10660.00     0.050
 10670.00     0.020
 10680.00     0.050
 10690.00     0.015
 10700.00     0.060
 10710.00     0.015
 10720.00     0.015
 10730.00     0.040
 10740.00     0.065
 10750.00     0.080
 10760.00     0.050
 10770.00     0.025
 10780.00    -0.020
 10790.00     0.040
 10800.00     0.045
 10810.00     0.040
 10820.00     0.020
 10830.00     0.070
 10840.00     0.065
 10850.00     0.040
 10860.00     0.015
 10870.00     0.000
 10880.00     0.075
 10890.00     0.010
 10900.00     0.020
 10910.00     0.045
 10920.00     0.025
 10930.00     0.000
 10940.00     0.030
 10950.00     0.055
 10960.00     0.030
 10970.00     0.095
 10980.00     0.050
 10990.00     0.035
 11000.00    -0.005
 11010.00     0.065
 11020.00     0.005
 11030.00     0.020
 11040.00     0.040
 11050.00     0.025
 11060.00     0.010
 11070.00     0.040
 11080.00     0.005
 11090.00    -0.010
 11100.00     0.060
 11110.00     0.045
 11120.00     0.035
 11130.00     0.040
 11140.00     0.020
 11150.00     0.035
 11160.00    -0.015
 11170.00     0.055
 11180.00     0.090
 11190.00     0.050
 11200.00     0.045
 11210.00     0.040
 11220.00     0.030
 11230.00    -0.015
 11240.00     0.060
 11250.00     0.040
 11260.00    -0.025
 11270.00     0.075
 11280.00     0.025
 11290.00     0.075
 11300.00     0.050
 11310.00     0.090
 11320.00     0.075
 11330.00     0.010
 11340.00    -0.040
 11350.00    -0.065
 11360.00    -0.030
 11370.00     0.010
 11380.00     0.030
 11390.00     0.000
 11400.00     0.000
 11410.00     0.025
 11420.00     0.040
 11430.00     0.035
 11440.00     0.020
 11450.00     0.020
 11460.00     0.025
 11470.00     0.030
 11480.00     0.050
 11490.00     0.070
 11500.00     0.005
 11510.00     0.055
 11520.00     0.025
 11530.00     0.035
 11540.00     0.100
 11550.00     0.060
 11560.00     0.070
 11570.00     0.075
 11580.00    -0.025
 11590.00    -0.005
 11600.00    -0.020
 11610.00     0.030
 11620.00     0.025
 11630.00     0.050
 11640.00     0.005
 11650.00     0.020
 11660.00     0.040
 11670.00     0.020
 11680.00     0.020
 11690.00     0.045
 11700.00     0.050
 11710.00     0.040
 11720.00     0.015
 11730.00     0.000
 11740.00     0.050
 11750.00     0.055
 11760.00     0.000
 11770.00     0.050
 11780.00    -0.010
 11790.00     0.065
 11800.00     0.035
 11810.00     0.050
 11820.00     0.055
 11830.00     0.050
 11840.00     0.065
 11850.00     0.045
 11860.00     0.065
 11870.00     0.045
 11880.00     0.010
 11890.00    -0.095
 11900.00    -0.140
 11910.00     0.010
 11920.00    -0.005
 11930.00     0.090
 11940.00     0.080
 11950.00     0.020
 11960.00     0.050
 11970.00     0.020
 11980.00     0.005
 11990.00    -0.060
 12000.00     0.060
